number	response_trial	correct	response_time	fixation_start	stimulus_start	iti_start	pd_parser_sample	trial_type
5	False	False	n/a	4710.2738	1.097	2.0991	n/a	arabic
2	False	False	n/a	4714.7961	1.0983	2.1031	n/a	dots
eight	False	False	n/a	4719.3245	1.0951	2.0989	-30761.0	written
one	False	False	n/a	4723.8487	1.0966	2.1007	n/a	written
9	False	False	n/a	4728.3716	1.0981	2.1008	n/a	arabic
2	False	False	n/a	4732.8983	1.0981	2.1041	n/a	dots
4	False	False	n/a	4737.4244	1.0986	2.114	n/a	spoken
1	False	False	n/a	4741.9632	1.098	2.1583	n/a	beeps
five	False	False	n/a	4746.5423	1.0939	2.0999	n/a	written
4	False	False	n/a	4751.068	1.098	2.1044	968.0	dots
3	False	False	n/a	4755.5982	1.0944	2.0967	5509.0	arabic
5	False	False	n/a	4760.1166	1.0949	2.1067	10010.0	spoken
6	False	False	n/a	4764.6488	1.0951	2.107	n/a	spoken
8	False	False	n/a	4769.1797	1.0972	2.1081	19080.0	spoken
nine	False	False	n/a	4773.7114	1.0948	2.0995	23625.0	written
3	False	False	n/a	4778.2319	1.0982	2.1039	28137.0	dots
3	False	False	n/a	4782.7597	1.0944	2.1062	32654.0	spoken
4	False	False	n/a	4787.2902	1.0972	2.1031	37183.0	dots
2	True	False	3.026	4791.8189	1.0941	4.6697	41710.0	beeps
one	False	False	n/a	4798.9131	1.0976	2.1031	n/a	written
7	False	False	n/a	4803.4418	1.0979	2.1092	53354.0	spoken
7	False	False	n/a	4807.9764	1.0981	2.1025	57913.0	arabic
2	False	False	n/a	4812.5019	1.0977	2.1094	62425.0	spoken
8	False	False	n/a	4817.0341	1.0948	2.0972	66958.0	spoken
2	False	False	n/a	4821.5531	1.0935	2.0994	71452.0	dots
nine	False	False	n/a	4826.077	1.0979	2.1029	75993.0	written
5	False	False	n/a	4830.6054	1.0941	2.0982	80523.0	arabic
1	False	False	n/a	4835.1274	1.0979	2.1037	85036.0	dots
5	False	False	n/a	4839.6567	1.0978	2.0988	89576.0	arabic
3	False	False	n/a	4844.1804	1.0959	2.1438	94083.0	beeps
3	False	False	n/a	4848.75	1.0956	2.0995	98662.0	beeps
four	False	False	n/a	4853.2751	1.0935	2.0943	103191.0	written
8	False	False	n/a	4857.7943	1.0979	2.1036	107715.0	arabic
9	False	False	n/a	4862.3227	1.0938	2.0968	112234.0	arabic
2	False	False	n/a	4866.8427	1.0956	2.1013	116760.0	spoken
5	False	False	n/a	4871.3668	1.0974	2.1032	121283.0	spoken
5	False	False	n/a	4875.8955	1.0958	2.102	125798.0	dots
6	False	False	n/a	4880.4195	1.0978	2.1031	130335.0	spoken
2	False	False	n/a	4884.9482	1.0978	2.1032	134858.0	spoken
eight	True	False	2.366	4889.477	3.4616	3.964	139388.0	written
4	False	False	n/a	4895.8635	1.0967	2.1019	145783.0	spoken
three	False	False	n/a	4900.3873	1.0979	2.1031	150312.0	written
nine	False	False	n/a	4904.916	1.0944	2.0953	154831.0	written
two	False	False	n/a	4909.4321	1.0978	2.1037	159350.0	written
5	True	True	4.403	4913.9613	1.0979	6.0444	163862.0	beeps
5	False	False	n/a	4922.4313	1.0979	2.1022	172325.0	dots
7	False	False	n/a	4926.9589	1.0972	2.1026	176875.0	arabic
5	False	False	n/a	4931.4841	1.0979	2.1036	181398.0	beeps
4	False	False	n/a	4936.0099	1.096	2.1023	185912.0	dots
7	False	False	n/a	4940.5381	1.0971	2.1026	190458.0	arabic
1	False	False	n/a	4945.0663	1.0978	2.1014	194986.0	arabic
nine	True	False	2.445	4949.5921	3.5437	4.0473	199511.0	written
9	False	False	n/a	4956.0649	1.0932	2.0975	205977.0	arabic
1	True	True	2.356	4960.5877	1.0979	3.9602	210506.0	beeps
three	False	False	n/a	4966.9736	1.0979	2.1035	216890.0	written
4	False	False	n/a	4971.5026	1.0939	2.1493	221403.0	beeps
1	False	False	n/a	4976.0773	1.0942	2.0986	225995.0	arabic
1	False	False	n/a	4980.5995	1.093	2.0965	230511.0	beeps
9	False	False	n/a	4985.1173	1.094	2.1054	235035.0	spoken
9	False	False	n/a	4989.6439	1.0944	2.0997	239563.0	spoken
1	False	False	n/a	4994.1651	1.0972	2.0999	244082.0	beeps
2	False	False	n/a	4998.689	1.0978	2.1034	248604.0	beeps
1	False	False	n/a	5003.2149	1.0948	2.1	253115.0	dots
5	False	False	n/a	5007.7383	1.0941	2.0999	257659.0	beeps
two	True	False	1.999	5012.2638	3.0945	3.5952	262180.0	written
3	False	False	n/a	5018.2816	1.0959	2.1016	268186.0	dots
2	False	False	n/a	5022.8089	1.0957	2.1015	272726.0	arabic
3	False	False	n/a	5027.3361	1.0978	2.1038	277240.0	dots
7	False	False	n/a	5031.8655	1.0978	2.1032	281784.0	arabic
7	True	False	2.003	5036.3943	3.0982	3.5988	286315.0	arabic
5	False	False	n/a	5042.4188	1.094	2.0994	292337.0	arabic
4	False	False	n/a	5046.9439	1.0949	2.1002	296865.0	beeps
9	False	False	n/a	5051.4675	1.0962	2.1022	301388.0	spoken
6	False	False	n/a	5055.9956	1.098	2.1041	305914.0	arabic
2	False	False	n/a	5060.5246	1.0981	2.1038	310444.0	beeps
four	False	False	n/a	5065.0538	1.0932	2.0981	314974.0	written
two	False	False	n/a	5069.5733	1.0957	2.1007	319485.0	written
one	False	False	n/a	5074.0994	1.0928	2.0979	n/a	written
1	False	False	n/a	5078.6228	1.0929	2.0982	n/a	beeps
six	False	False	n/a	5083.1418	1.0979	2.1026	n/a	written
4	False	False	n/a	5087.67	1.093	2.0953	n/a	spoken
eight	False	False	n/a	5092.1864	1.0974	2.0982	n/a	written
7	False	False	n/a	5096.7098	1.0978	2.1015	n/a	arabic
4	False	False	n/a	5101.2333	1.0979	2.1038	n/a	dots
six	True	False	1.969	5105.7628	3.067	3.5723	n/a	written
3	False	False	n/a	5111.7607	1.0979	2.0989	n/a	beeps
5	False	False	n/a	5116.2797	1.0955	2.1013	n/a	beeps
2	False	False	n/a	5120.8064	1.0936	2.0987	n/a	arabic
2	False	False	n/a	5125.3273	1.0932	2.0991	n/a	dots
5	False	False	n/a	5129.8492	1.0937	2.0997	379751.0	dots
eight	False	False	n/a	5134.373	1.0979	2.1034	384297.0	written
4	False	False	n/a	5138.8998	1.098	2.1037	388803.0	dots
2	False	False	n/a	5143.4291	1.098	2.1045	n/a	beeps
4	False	False	n/a	5147.9593	1.0979	2.1029	397875.0	dots
3	False	False	n/a	5152.4878	1.0979	2.1036	402393.0	dots
3	False	False	n/a	5157.0168	1.0979	2.1026	406950.0	beeps
nine	False	False	n/a	5161.5401	1.0972	2.1024	411463.0	written
seven	True	False	2.595	5166.068	3.6928	4.1977	415992.0	written
3	False	False	n/a	5172.6913	1.0979	2.1033	422606.0	spoken
two	False	False	n/a	5177.2202	1.0944	2.0995	427135.0	written
9	False	False	n/a	5181.7428	1.096	2.1015	431659.0	spoken
5	False	False	n/a	5186.2697	1.0978	2.1035	436189.0	beeps
5	False	False	n/a	5190.7943	1.0954	2.1005	440702.0	dots
9	False	False	n/a	5195.3164	1.095	2.1003	445236.0	spoken
5	False	False	n/a	5199.8415	1.0954	2.0971	449746.0	dots
6	False	False	n/a	5204.3645	1.0935	2.0988	454283.0	arabic
2	False	False	n/a	5208.8875	1.0961	2.1018	458788.0	dots
8	False	False	n/a	5213.4113	1.0957	2.1009	463335.0	arabic
7	False	False	n/a	5217.9376	1.0979	2.101	467853.0	arabic
7	True	True	2.486	5222.4643	1.0945	4.0836	472376.0	spoken
3	False	False	n/a	5228.9699	1.0941	2.0989	478877.0	dots
2	False	False	n/a	5233.4944	1.0954	2.1009	483422.0	spoken
five	False	False	n/a	5238.017	1.0978	2.1029	487945.0	written
1	False	False	n/a	5242.5421	1.0979	2.1105	492446.0	spoken
1	False	False	n/a	5247.0777	1.0979	2.1037	496983.0	dots
1	True	False	1.275	5251.6064	2.3684	2.8723	501530.0	arabic
4	False	False	n/a	5256.9007	1.0979	2.103	506803.0	dots
2	False	False	n/a	5261.4293	1.0977	2.1034	511326.0	dots
1	False	False	n/a	5265.9583	1.098	2.1041	515885.0	beeps
2	False	False	n/a	5270.488	1.0978	2.1038	520401.0	beeps
six	False	False	n/a	5275.0173	1.0964	2.1015	524939.0	written
6	False	False	n/a	5279.5422	1.0977	2.1019	529458.0	spoken
4	False	False	n/a	5284.0695	1.0934	2.098	533987.0	beeps
5	False	False	n/a	5288.591	1.0976	2.1	538515.0	beeps
4	False	False	n/a	5293.1117	1.0977	2.1012	543029.0	beeps
9	False	False	n/a	5297.6344	1.0953	2.1006	547555.0	arabic
6	False	False	n/a	5302.1604	1.0935	2.0991	552075.0	spoken
3	False	False	n/a	5306.685	1.0972	2.1026	556604.0	spoken
6	True	False	1.906	5311.2103	2.9994	3.5045	561119.0	arabic
five	False	False	n/a	5317.137	1.0963	2.1014	567057.0	written
9	False	False	n/a	5321.664	1.098	2.1037	571588.0	spoken
3	False	False	n/a	5326.192	1.0979	2.1029	576111.0	spoken
4	False	False	n/a	5330.7201	1.0933	2.0991	580639.0	beeps
9	False	False	n/a	5335.2433	1.0951	2.1001	585163.0	spoken
6	False	False	n/a	5339.7689	1.0935	2.0965	589693.0	spoken
1	False	False	n/a	5344.2906	1.0972	2.1026	594207.0	spoken
3	False	False	n/a	5348.8188	1.098	2.1032	598735.0	arabic
1	True	True	2.251	5353.3475	1.0949	3.8472	603266.0	spoken
8	False	False	n/a	5359.6173	1.0931	2.0985	609530.0	arabic
4	False	False	n/a	5364.137	1.0963	2.1018	614056.0	beeps
4	False	False	n/a	5368.6602	1.0978	2.0992	618579.0	arabic
2	False	False	n/a	5373.182	1.0978	2.1026	623101.0	beeps
1	False	False	n/a	5377.7093	1.0979	2.1023	627626.0	spoken
6	False	False	n/a	5382.2371	1.0972	2.1015	632162.0	spoken
1	False	False	n/a	5386.7597	1.098	2.1022	636668.0	dots
5	False	False	n/a	5391.2845	1.0972	2.1029	641187.0	dots
4	False	False	n/a	5395.8113	1.0979	2.1039	645709.0	dots
3	False	False	n/a	5400.3364	1.0977	2.1039	650253.0	beeps
2	True	True	4.212	5404.8657	1.096	5.8096	654767.0	beeps
9	False	False	n/a	5413.0995	1.0928	2.0982	663022.0	arabic
seven	True	False	2.199	5417.6229	3.2973	3.8025	667542.0	written
six	True	False	1.16	5423.8493	2.2564	2.7586	673769.0	written
4	False	False	n/a	5429.033	1.0974	2.0986	678951.0	spoken
two	False	False	n/a	5433.5523	1.094	2.0991	683468.0	written
8	False	False	n/a	5438.0744	1.0953	2.1003	687991.0	arabic
3	False	False	n/a	5442.5995	1.0958	2.102	692505.0	dots
five	False	False	n/a	5447.1272	1.0979	2.1035	697035.0	written
3	True	False	2.078	5451.6563	3.1762	3.6816	701581.0	arabic
6	False	False	n/a	5457.759	1.0952	2.1006	707681.0	arabic
1	False	False	n/a	5462.2828	1.0955	2.1006	712212.0	arabic
2	True	False	1.339	5466.8089	2.4332	2.9352	716728.0	dots
2	False	False	n/a	5472.1697	1.0964	2.1021	722091.0	beeps
2	False	False	n/a	5476.6952	1.0978	2.1036	726595.0	dots
two	False	False	n/a	5481.2245	1.0969	2.1024	731141.0	written
four	False	False	n/a	5485.7525	1.0969	2.102	735671.0	written
6	False	False	n/a	5490.2754	1.0955	2.1006	740200.0	arabic
8	False	False	n/a	5494.8006	1.098	2.0991	744721.0	arabic
4	False	False	n/a	5499.3244	1.0952	2.1003	749241.0	beeps
9	False	False	n/a	5503.8455	1.0952	2.1004	753770.0	arabic
eight	False	False	n/a	5508.3716	1.0933	2.0987	758290.0	written
4	False	False	n/a	5512.8921	1.0979	2.102	762808.0	beeps
1	False	False	n/a	5517.4149	1.0977	2.1037	767322.0	dots
six	False	False	n/a	5521.9441	1.0971	2.1016	771869.0	written
4	False	False	n/a	5526.4713	1.097	2.1014	776373.0	dots
2	False	False	n/a	5530.9983	1.0979	2.1019	780913.0	beeps
2	False	False	n/a	5535.5256	1.0938	2.0997	785443.0	spoken
2	False	False	n/a	5540.0499	1.0954	2.1009	789969.0	beeps
nine	False	False	n/a	5544.5719	1.0979	2.1029	794493.0	written
seven	False	False	n/a	5549.0999	1.098	2.0995	n/a	written
3	False	False	n/a	5553.6251	1.0978	2.1045	803535.0	dots
5	False	False	n/a	5558.1551	1.0941	2.1002	808065.0	dots
one	True	False	1.768	5562.6806	2.8678	3.3704	812608.0	written
5	False	False	n/a	5568.4772	1.0961	2.0973	818392.0	dots
5	False	False	n/a	5573.0001	1.0981	2.104	822922.0	beeps
five	False	False	n/a	5577.5301	1.096	2.1014	827451.0	written
5	False	False	n/a	5582.0523	1.0979	2.1029	831976.0	spoken
2	False	False	n/a	5586.5807	1.0979	2.103	836505.0	arabic
5	False	False	n/a	5591.1046	1.0948	2.1007	841022.0	beeps
1	False	False	n/a	5595.6308	1.0939	2.0996	845545.0	beeps
5	False	False	n/a	5600.1547	1.097	2.1019	850074.0	arabic
9	False	False	n/a	5604.6822	1.0979	2.1037	854604.0	spoken
2	False	False	n/a	5609.2113	1.0979	2.1034	859129.0	beeps
one	False	False	n/a	5613.7388	1.098	2.1031	863663.0	written
6	False	False	n/a	5618.2647	1.0967	2.0987	868183.0	spoken
2	False	False	n/a	5622.7886	1.094	2.0998	872696.0	dots
2	False	False	n/a	5627.3141	1.0972	2.1032	877248.0	beeps
4	False	False	n/a	5631.8393	1.0933	2.0986	881755.0	dots
2	True	True	2.4	5636.3594	1.0958	3.9972	n/a	spoken
2	False	False	n/a	5642.7791	1.0964	2.1018	892703.0	arabic
3	False	False	n/a	5647.3064	1.0929	2.0987	897209.0	dots
