trial_i	trial_type	number	response_trial	correct	response_time	fixation_start	stimulus_start	iti_start
2	written	eight	False	False	n/a	383839.5	384940.699999809	385956.599999905
3	written	one	False	False	n/a	388383.099999905	389484.400000095	390498.299999714
4	arabic	9	False	False	n/a	392925.900000095	394030.5	395038.900000095
5	dots	2	False	False	n/a	397476.599999905	398578.299999714	399580.199999809
6	spoken	4	False	False	n/a	402006.5	403109.599999905	404314.5
7	beeps	1	False	False	n/a	406744.5	407855.400000095	408904.5
9	dots	4	False	False	n/a	415906.199999809	417014.900000095	418035.900000095
10	arabic	3	False	False	n/a	420465.099999905	421569.799999714	422573.400000095
11	spoken	5	False	False	n/a	425000.599999905	426104.400000095	427164.699999809
12	spoken	6	False	False	n/a	429604.5	430706.0	431739.299999714
13	spoken	8	False	False	n/a	434173.699999809	435273.799999714	436316.599999905
14	written	nine	False	False	n/a	438744.599999905	439844.0	440864.699999809
15	dots	3	False	False	n/a	443305.099999905	444404.5	445425.099999905
16	spoken	3	False	False	n/a	447847.199999809	448956.599999905	450017.5
17	dots	4	False	False	n/a	452446.799999714	453548.799999714	454552.5
18	beeps	2	True	True	1577.0	456978.199999809	458078.599999905	460206.799999714
19	written	one	False	False	n/a	462637.199999809	463745.900000095	464757.0
20	spoken	7	False	False	n/a	467194.0	468308.900000095	469367.699999809
21	arabic	7	False	False	n/a	471807.5	472907.699999809	473919.199999809
22	spoken	2	False	False	n/a	476346.900000095	477448.799999714	478507.900000095
23	spoken	8	False	False	n/a	480939.299999714	482038.0	483058.299999714
24	dots	2	False	False	n/a	485487.099999905	486588.199999809	487609.099999905
25	written	nine	False	False	n/a	490037.799999714	491133.900000095	492157.299999714
26	arabic	5	False	False	n/a	494587.799999714	495693.299999714	496702.099999905
27	dots	1	False	False	n/a	499133.699999809	500241.5	501248.299999714
28	arabic	5	False	False	n/a	503670.699999809	504778.099999905	505792.799999714
29	beeps	3	False	False	n/a	508226.599999905	509323.0	510466.699999809
30	beeps	3	False	False	n/a	512895.099999905	514005.699999809	515025.299999714
31	written	four	False	False	n/a	517465.099999905	518575.799999714	519584.299999714
32	arabic	8	False	False	n/a	522016.299999714	523116.900000095	524119.799999714
33	arabic	9	False	False	n/a	526567.400000095	527670.099999905	528688.299999714
34	spoken	2	False	False	n/a	531111.5	532213.099999905	533227.599999905
35	spoken	5	False	False	n/a	535668.0	536768.199999809	537779.299999714
36	dots	5	False	False	n/a	540208.5	541319.599999905	542338.299999714
37	spoken	6	False	False	n/a	544769.599999905	545868.299999714	546879.900000095
38	spoken	2	False	False	n/a	549307.799999714	550409.799999714	551418.599999905
39	written	eight	True	False	2731.0	553857.400000095	557702.299999714	558217.799999714
40	spoken	4	False	False	n/a	560650.0	561749.400000095	562758.799999714
41	written	three	False	False	n/a	565197.799999714	566299.599999905	567318.099999905
42	written	nine	False	False	n/a	569759.299999714	570868.099999905	571877.5
43	written	two	False	False	n/a	574310.0	575404.699999809	576410.599999905
44	beeps	5	True	True	3003.0	578841.099999905	579941.400000095	583535.5
45	dots	5	False	False	n/a	585957.5	587057.599999905	588072.099999905
46	arabic	7	False	False	n/a	590495.099999905	591597.299999714	592602.099999905
47	beeps	5	False	False	n/a	595027.599999905	596130.099999905	597138.599999905
48	dots	4	False	False	n/a	599562.699999809	600674.299999714	601693.400000095
49	arabic	7	False	False	n/a	604133.099999905	605244.900000095	606263.699999809
50	arabic	1	False	False	n/a	608689.599999905	609794.699999809	610798.900000095
51	written	nine	True	False	671.0	613234.599999905	615004.799999714	615509.5
52	arabic	9	False	False	n/a	617940.0	619043.199999809	620056.099999905
53	beeps	1	True	True	1995.0	622491.299999714	623596.599999905	626098.900000095
54	written	three	False	False	n/a	628537.900000095	629637.699999809	630657.599999905
55	beeps	4	False	False	n/a	633097.699999809	634208.0	635257.599999905
56	arabic	1	False	False	n/a	637697.5	638807.699999809	639827.599999905
57	beeps	1	False	False	n/a	642263.5	643363.900000095	644378.0
58	spoken	9	False	False	n/a	646817.699999809	647917.699999809	648967.699999809
59	spoken	9	False	False	n/a	651397.799999714	652507.400000095	653518.199999809
60	beeps	1	False	False	n/a	655952.699999809	657047.799999714	658062.5
61	beeps	2	False	False	n/a	660494.0	661605.900000095	662616.900000095
62	dots	1	False	False	n/a	665052.900000095	666148.0	667164.099999905
63	beeps	5	False	False	n/a	669587.599999905	670697.699999809	671707.799999714
64	written	two	True	False	3450.0	674137.699999809	678694.400000095	679207.699999809
65	dots	3	False	False	n/a	681637.5	682747.199999809	683761.599999905
66	arabic	2	False	False	n/a	686194.900000095	687290.400000095	688299.400000095
67	dots	3	False	False	n/a	690724.599999905	691833.099999905	692835.299999714
68	arabic	7	False	False	n/a	695262.099999905	696370.400000095	697376.299999714
69	arabic	7	True	False	6658.0	699804.900000095	707566.900000095	708075.0
70	arabic	5	False	False	n/a	710508.299999714	711615.799999714	712630.400000095
71	beeps	4	False	False	n/a	715066.0	716161.0	717175.5
72	spoken	9	False	False	n/a	719617.5	720716.299999714	721737.799999714
73	arabic	6	False	False	n/a	724176.5	725270.699999809	726287.199999809
74	beeps	2	False	False	n/a	728710.599999905	729816.0	730824.599999905
75	written	four	False	False	n/a	733255.699999809	734357.599999905	735370.900000095
76	written	two	False	False	n/a	737806.599999905	738900.799999714	739906.900000095
77	written	one	False	False	n/a	742331.900000095	743429.199999809	744434.900000095
78	beeps	1	False	False	n/a	746870.5	747975.5	748989.099999905
79	written	six	False	False	n/a	751418.599999905	752517.699999809	753538.799999714
80	spoken	4	False	False	n/a	755968.900000095	757078.5	758094.900000095
81	written	eight	False	False	n/a	760522.699999809	761617.400000095	762628.400000095
82	arabic	7	False	False	n/a	765059.5	766157.699999809	767167.400000095
83	dots	4	False	False	n/a	769600.199999809	770705.699999809	771711.0
84	written	six	True	False	6656.0	774141.299999714	781909.099999905	782415.0
85	beeps	3	False	False	n/a	784844.900000095	785949.299999714	786959.0
86	beeps	5	False	False	n/a	789386.099999905	790496.400000095	791508.900000095
87	arabic	2	False	False	n/a	793946.799999714	795046.699999809	796056.099999905
88	dots	2	False	False	n/a	798486.699999809	799587.599999905	800607.299999714
89	dots	5	False	False	n/a	803035.099999905	804137.799999714	805142.0
90	written	eight	False	False	n/a	807565.0	808660.0	809672.900000095
91	dots	4	False	False	n/a	812095.699999809	813201.799999714	814211.299999714
92	beeps	2	False	False	n/a	816638.199999809	817745.699999809	818755.199999809
93	dots	4	False	False	n/a	821183.0	822284.299999714	823304.199999809
94	dots	3	False	False	n/a	825743.799999714	826845.599999905	827863.599999905
95	beeps	3	False	False	n/a	830286.599999905	831390.900000095	832410.099999905
96	written	nine	False	False	n/a	834849.099999905	835948.099999905	836950.0
97	written	seven	True	False	797.0	839373.299999714	841277.0	841788.699999809
98	spoken	3	False	False	n/a	844212.299999714	845319.299999714	846329.400000095
99	written	two	False	False	n/a	848759.299999714	849860.299999714	850879.0
100	spoken	9	False	False	n/a	853310.400000095	854414.799999714	855420.599999905
101	beeps	5	False	False	n/a	857844.0	858939.599999905	859960.199999809
102	dots	5	False	False	n/a	862400.599999905	863499.900000095	864504.0
103	spoken	9	False	False	n/a	866941.199999809	868040.799999714	869061.0
104	dots	5	False	False	n/a	871499.099999905	872599.099999905	873620.599999905
105	arabic	6	False	False	n/a	876054.400000095	877159.799999714	878180.5
106	dots	2	False	False	n/a	880614.699999809	881716.599999905	882721.199999809
107	arabic	8	False	False	n/a	885153.599999905	886250.400000095	887262.900000095
108	arabic	7	False	False	n/a	889699.900000095	890794.900000095	891797.5
109	spoken	7	True	True	1441.0	894234.599999905	895336.099999905	897282.699999809
110	dots	3	False	False	n/a	899712.5	900812.599999905	901821.099999905
111	spoken	2	False	False	n/a	904252.900000095	905366.799999714	906383.400000095
112	written	five	False	False	n/a	908821.5	909931.400000095	910952.5
113	spoken	1	False	False	n/a	913381.199999809	914482.400000095	915542.699999809
114	dots	1	False	False	n/a	917972.799999714	919076.400000095	920082.099999905
115	arabic	1	True	False	717.0	922521.5	924340.299999714	924851.599999905
116	dots	4	False	False	n/a	927283.900000095	928389.299999714	929390.900000095
117	dots	2	False	False	n/a	931814.5	932912.400000095	933923.5
118	beeps	1	False	False	n/a	936350.599999905	937450.599999905	938462.099999905
119	beeps	2	False	False	n/a	940890.599999905	941990.900000095	943002.400000095
120	written	six	False	False	n/a	945440.0	946540.400000095	947554.900000095
121	spoken	6	False	False	n/a	949981.199999809	951090.199999809	952100.5
122	beeps	4	False	False	n/a	954530.099999905	955625.900000095	956630.699999809
123	beeps	5	False	False	n/a	959060.599999905	960160.799999714	961181.0
124	beeps	4	False	False	n/a	963620.099999905	964731.699999809	965751.5
125	arabic	9	False	False	n/a	968179.599999905	969291.799999714	970310.299999714
126	spoken	6	False	False	n/a	972749.900000095	973861.900000095	974871.799999714
127	spoken	3	False	False	n/a	977312.0	978420.400000095	979438.5
128	arabic	6	True	False	1111.0	981870.599999905	984092.099999905	984610.5
129	written	five	False	False	n/a	987051.599999905	988150.299999714	989170.900000095
130	spoken	9	False	False	n/a	991604.099999905	992708.0	993728.5
131	spoken	3	False	False	n/a	996168.0	997266.299999714	998281.199999809
132	beeps	4	False	False	n/a	1000716.29999971	1001822.79999971	1002838.0
133	spoken	9	False	False	n/a	1005266.0	1006377.79999971	1007386.79999971
134	spoken	6	False	False	n/a	1009821.0999999	1010926.19999981	1011948.0999999
135	spoken	1	False	False	n/a	1014380.9000001	1015476.0	1016491.4000001
136	arabic	3	False	False	n/a	1018926.5999999	1020026.5999999	1021046.0
137	spoken	1	True	True	933.0	1023477.19999981	1024587.29999971	1026026.0999999
138	arabic	8	False	False	n/a	1028465.79999971	1029567.5	1030571.9000001
139	beeps	4	False	False	n/a	1032996.79999971	1034096.9000001	1035106.4000001
140	arabic	4	False	False	n/a	1037547.5999999	1038646.0999999	1039667.5999999
141	beeps	2	False	False	n/a	1042096.29999971	1043195.9000001	1044208.29999971
142	spoken	1	False	False	n/a	1046645.79999971	1047746.79999971	1048753.5
143	spoken	6	False	False	n/a	1051186.4000001	1052281.29999971	1053298.5
144	dots	1	False	False	n/a	1055735.69999981	1056846.29999971	1057866.79999971
145	dots	5	False	False	n/a	1060296.0999999	1061397.5999999	1062416.29999971
146	dots	4	False	False	n/a	1064841.69999981	1065946.5999999	1066949.4000001
147	beeps	3	False	False	n/a	1069395.69999981	1070499.4000001	1071518.79999971
148	beeps	2	True	True	1685.0	1073952.0	1075058.0	1077247.19999981
149	arabic	9	False	False	n/a	1079688.4000001	1080797.0	1081813.69999981
151	written	six	True	False	884.0	1089166.5999999	1091154.69999981	1091671.0999999
152	spoken	4	False	False	n/a	1094098.79999971	1095204.29999971	1096218.29999971
154	arabic	8	False	False	n/a	1103217.79999971	1104318.79999971	1105326.9000001
155	dots	3	False	False	n/a	1107760.69999981	1108866.79999971	1109872.19999981
156	written	five	False	False	n/a	1112294.5	1113401.0999999	1114412.0999999
157	arabic	3	True	False	903.0	1116840.79999971	1118844.5999999	1119347.0999999
158	arabic	6	False	False	n/a	1121769.5999999	1122878.0999999	1123882.19999981
159	arabic	1	False	False	n/a	1126319.9000001	1127420.0	1128430.4000001
160	dots	2	True	False	929.0	1130859.5	1132894.0999999	1133397.5999999
161	beeps	2	False	False	n/a	1135832.5	1136935.0	1137944.0
162	dots	2	False	False	n/a	1140371.79999971	1141471.79999971	1142483.0999999
163	written	two	False	False	n/a	1144921.79999971	1146022.29999971	1147031.79999971
164	written	four	False	False	n/a	1149465.5	1150572.0999999	1151577.69999981
165	arabic	6	False	False	n/a	1154006.79999971	1155111.29999971	1156116.79999971
166	arabic	8	False	False	n/a	1158548.29999971	1159654.5	1160666.69999981
167	beeps	4	False	False	n/a	1163093.69999981	1164196.79999971	1165210.29999971
168	arabic	9	False	False	n/a	1167650.29999971	1168760.5	1169770.4000001
169	written	eight	False	False	n/a	1172210.79999971	1173309.69999981	1174330.5
170	beeps	4	False	False	n/a	1176765.79999971	1177871.79999971	1178876.29999971
171	dots	1	False	False	n/a	1181306.0	1182406.5	1183412.29999971
172	written	six	False	False	n/a	1185847.5	1186947.19999981	1187956.0
173	dots	4	False	False	n/a	1190386.9000001	1191489.69999981	1192496.0
174	beeps	2	False	False	n/a	1194920.69999981	1196024.0999999	1197029.79999971
175	spoken	2	False	False	n/a	1199469.5999999	1200580.29999971	1201589.69999981
176	beeps	2	False	False	n/a	1204019.0999999	1205124.19999981	1206131.5
177	written	nine	False	False	n/a	1208556.5999999	1209670.79999971	1210689.5999999
178	written	seven	False	False	n/a	1213118.9000001	1214230.29999971	1215238.9000001
179	dots	3	False	False	n/a	1217672.9000001	1218776.69999981	1219779.5
180	dots	5	False	False	n/a	1222206.0999999	1223314.9000001	1224319.9000001
181	written	one	True	False	829.0	1226747.19999981	1228675.69999981	1229182.29999971
182	dots	5	False	False	n/a	1231604.79999971	1232709.9000001	1233716.19999981
183	beeps	5	False	False	n/a	1236148.69999981	1237250.0999999	1238271.19999981
184	written	five	False	False	n/a	1240709.0	1241804.0999999	1242809.9000001
185	spoken	5	False	False	n/a	1245244.0	1246341.0	1247358.29999971
186	arabic	2	False	False	n/a	1249798.69999981	1250899.0999999	1251918.79999971
187	beeps	5	False	False	n/a	1254359.5	1255458.79999971	1256475.4000001
188	beeps	1	False	False	n/a	1258903.5	1260000.19999981	1261009.9000001
189	arabic	5	False	False	n/a	1263439.19999981	1264540.5	1265548.0999999
190	spoken	9	False	False	n/a	1267980.4000001	1269088.5999999	1270100.69999981
191	beeps	2	False	False	n/a	1272539.19999981	1273634.29999971	1274645.0999999
192	written	one	False	False	n/a	1277078.29999971	1278179.0	1279198.0999999
193	spoken	6	False	False	n/a	1281639.5	1282738.5999999	1283753.9000001
194	dots	2	False	False	n/a	1286179.0999999	1287279.19999981	1288298.5
195	beeps	2	False	False	n/a	1290728.4000001	1291840.5999999	1292849.19999981
197	spoken	2	True	True	959.0	1299839.9000001	1300938.79999971	1302406.5
198	arabic	2	False	False	n/a	1304838.29999971	1305940.0999999	1306958.4000001
199	dots	3	False	False	n/a	1309400.29999971	1310508.9000001	1311519.79999971
